Particle Type	Particle Size [nm]	Harmonic #	Harmonic Type 0 Amp	AC [mT]	DC Donut Threshold [%]	Initial Donut Radius [mT]	Donut Slope [mT/mT]	
      4.00000	      23.0000	      3.00000	      1.00000	      10.0000	      89.5078	      14.2898	     0.302917	
      4.00000	      23.0000	      3.00000	      1.00000	      10.0000	      89.5078	      14.2898	     0.302917	
      4.00000	      23.0000	      3.00000	      1.00000	      10.0000	      89.5078	      14.2898	     0.302917	
      4.00000	      23.0000	      3.00000	      1.00000	      10.0000	      89.5078	      14.2898	     0.302917	
      4.00000	      23.0000	      3.00000	      1.00000	      10.0000	      89.5078	      14.2898	     0.302917	
      4.00000	      23.0000	      3.00000	      1.00000	      10.0000	      89.5078	      14.2898	     0.302917	
      4.00000	      23.0000	      3.00000	      1.00000	      10.0000	      89.5078	      14.2898	     0.302917	
      4.00000	      23.0000	      3.00000	      1.00000	      10.0000	      89.5078	      14.2898	     0.302917	
      4.00000	      23.0000	      3.00000	      1.00000	      10.0000	      89.5078	      14.2898	     0.302917	
      4.00000	      23.0000	      3.00000	      1.00000	      10.0000	      89.5078	      14.2898	     0.302917	
      4.00000	      23.0000	      3.00000	      1.00000	      10.0000	      89.5078	      14.2898	     0.302917	
      4.00000	      23.0000	      3.00000	      1.00000	      10.0000	      89.5078	      14.2898	     0.302917	
      4.00000	      23.0000	      3.00000	      1.00000	      10.0000	      89.5078	      14.2898	     0.302917	
      4.00000	      23.0000	      3.00000	      1.00000	      10.0000	      89.5078	      14.2898	     0.302917	
      4.00000	      23.0000	      3.00000	      1.00000	      10.0000	      89.5078	      14.2898	     0.302917	
      4.00000	      23.0000	      3.00000	      1.00000	      10.0000	      89.5078	      14.2898	     0.302917	
      4.00000	      23.0000	      3.00000	      1.00000	      10.0000	      89.5078	      14.2898	     0.296076	
      4.00000	      23.0000	      3.00000	      1.00000	      10.0000	      89.5078	      14.2898	     0.296076	
      4.00000	      23.0000	      3.00000	      1.00000	      10.0000	      89.5078	      14.2898	     0.296076	
      4.00000	      77.0000	      3.00000	      1.00000	      10.0000	      89.5078	      15.0750	     0.225251	
      4.00000	      77.0000	      3.00000	      1.00000	      10.0000	      89.5078	      15.0750	     0.225251	
      4.00000	      77.0000	      3.00000	      1.00000	      10.0000	      89.5078	      15.0750	     0.225251	
      4.00000	      77.0000	      3.00000	      1.00000	      10.0000	      89.5078	      15.0750	     0.225251	
      4.00000	      77.0000	      3.00000	      1.00000	      10.0000	      89.5078	      15.0750	     0.225251	
      4.00000	      77.0000	      3.00000	      1.00000	      10.0000	      89.5078	      15.0750	     0.225251	
      4.00000	      23.0000	      3.00000	      1.00000	      10.0000	      89.5078	      14.2898	     0.302917	
      4.00000	      23.0000	      3.00000	      1.00000	      10.0000	      89.5078	      14.2898	     0.302917	
      4.00000	      23.0000	      3.00000	      1.00000	      10.0000	      89.5078	      14.2898	     0.302917	
      4.00000	      23.0000	      3.00000	      1.00000	      10.0000	      89.5078	      14.2898	     0.302917	
      4.00000	      23.0000	      3.00000	      1.00000	      10.0000	      89.5078	      14.2898	     0.302917	
      4.00000	      23.0000	      3.00000	      1.00000	      10.0000	      89.5078	      14.2898	     0.296076	
      4.00000	      23.0000	      3.00000	      1.00000	      10.0000	      89.5078	      14.2898	     0.293763	
      4.00000	      23.0000	      3.00000	      1.00000	      10.0000	      89.5078	      14.2898	     0.293763	
      4.00000	      40.0000	      3.00000	      1.00000	      10.0000	      89.5078	      14.9180	    -0.787592	
      4.00000	      23.0000	      3.00000	      1.00000	      10.0000	      89.5078	      14.2898	     0.302917	
      4.00000	      23.0000	      3.00000	      1.00000	      10.0000	      89.5078	      14.2898	     0.302917	
      4.00000	      23.0000	      3.00000	      1.00000	      10.0000	      89.5078	      14.2898	     0.302917	
      4.00000	      23.0000	      3.00000	      1.00000	      10.0000	      89.5078	      14.2898	     0.302917	
      4.00000	      37.0000	      3.00000	      1.00000	      10.0000	      89.5078	      14.9180	     0.244131	
      4.00000	      17.0000	      3.00000	      1.00000	      10.0000	      89.5078	      11.3063	     0.547887	
