Particle Type	Particle Size [nm]	Harmonic #	Harmonic Type 0 Amp	AC [mT]	DC Donut Threshold [%]	Initial Donut Radius [mT]	Donut Slope [mT/mT]	
      4.00000	      30.0000	      3.00000	     0.000000	      10.0000	      75.0000	     0.000000	     0.000000	
      4.00000	      30.0000	      3.00000	     0.000000	      10.0000	      100.500	     0.471094	     0.855128	
      4.00000	      30.0000	      3.00000	     0.000000	      10.0000	      100.500	     0.471094	     0.855128	
      4.00000	      30.0000	      3.00000	     0.000000	      10.0000	      100.500	     0.471094	     0.855128	
      4.00000	      30.0000	      3.00000	     0.000000	      10.0000	      100.500	     0.471094	     0.855128	
      4.00000	      30.0000	      3.00000	     0.000000	      10.0000	      100.500	     0.471094	     0.855128	
      4.00000	      30.0000	      3.00000	     0.000000	      10.0000	      100.500	     0.471094	     0.855128	
      4.00000	      30.0000	      3.00000	     0.000000	      10.0000	      100.500	     0.471094	     0.855128	
      4.00000	      30.0000	      3.00000	     0.000000	      10.0000	      100.500	     0.471094	     0.855128	
      4.00000	      30.0000	      3.00000	      2.00000	      10.0000	      98.9297	     0.471094	     0.857692	
      4.00000	      30.0000	      3.00000	      3.00000	      10.0000	      89.5078	      5.02500	     0.556137	
      4.00000	      30.0000	      3.00000	      3.00000	      10.0000	      89.5078	      19.9430	     -2.17203	
      4.00000	      30.0000	      3.00000	      3.00000	      10.0000	      89.5078	      5.02500	     0.556137	
      4.00000	      30.0000	      3.00000	      3.00000	      10.0000	      89.5078	      19.9430	-4.56092e-015	
      4.00000	      30.0000	      3.00000	      3.00000	      10.0000	      89.5078	      4.55391	     0.586083	
      4.00000	      30.0000	      3.00000	      3.00000	      10.0000	      89.5078	      5.02500	     0.556137	
      4.00000	      30.0000	      3.00000	      3.00000	      10.0000	      89.5078	      5.02500	     0.556137	
      4.00000	      30.0000	      3.00000	      3.00000	      10.0000	      89.5078	      5.02500	     0.556137	
      4.00000	      30.0000	      3.00000	      3.00000	      10.0000	      89.5078	      5.02500	     0.556137	
      4.00000	      30.0000	      3.00000	      3.00000	      10.0000	      89.5078	      5.02500	     0.556137	
      4.00000	      30.0000	      3.00000	      3.00000	      10.0000	      89.5078	      5.02500	     0.556137	
      4.00000	      30.0000	      3.00000	      3.00000	      10.0000	      89.5078	      5.02500	     0.556137	
      4.00000	      30.0000	      3.00000	      3.00000	      10.0000	      89.5078	      19.9430	     -2.67032	
      4.00000	      30.0000	      3.00000	      3.00000	      10.0000	      89.5078	      19.9430	     -2.49145	
      4.00000	      30.0000	      3.00000	      3.00000	      10.0000	      89.5078	      19.9430	     -2.67032	
      4.00000	      30.0000	      3.00000	      2.00000	      10.0000	      89.5078	      19.9430	     -2.10389	
      4.00000	      30.0000	      3.00000	     0.000000	      10.0000	      100.500	     0.471094	     0.855128	
      4.00000	      30.0000	      3.00000	     0.000000	      50.0000	      98.9297	      3.92578	     0.842177	
      4.00000	      30.0000	      3.00000	     0.000000	      50.0000	      89.5078	      3.14063	     0.906304	
      4.00000	      30.0000	      3.00000	     0.000000	      50.0000	      89.5078	      2.35547	     0.908451	
