Particle Type	Particle Size [nm]	Harmonic #	Harmonic Type 0 Amp	AC [mT]	DC Donut Threshold [%]	Initial Donut Radius [mT]	Donut Slope [mT/mT]	
      4.00000	      37.0000	      3.00000	      3.00000	      10.0000	      89.5078	      3.92578	     0.614789	
      4.00000	      37.0000	      3.00000	      3.00000	      10.0000	      89.5078	      3.92578	     0.614789	
      4.00000	      37.0000	      3.00000	      3.00000	      10.0000	      89.5078	      3.92578	     0.614789	
      4.00000	      37.0000	      3.00000	      3.00000	      10.0000	      89.5078	      3.92578	     0.614789	
      4.00000	      37.0000	      3.00000	      3.00000	      10.0000	      89.5078	      19.9430	     -2.59366	
      4.00000	      37.0000	      3.00000	      3.00000	      10.0000	      89.5078	      3.92578	     0.614789	
      4.00000	      37.0000	      3.00000	      3.00000	      10.0000	      89.5078	      19.9430	     -2.59366	
      4.00000	      37.0000	      3.00000	      3.00000	      10.0000	      89.5078	      3.92578	     0.614789	
      4.00000	      37.0000	      3.00000	      3.00000	      10.0000	      89.5078	      3.92578	     0.614789	
      4.00000	      37.0000	      3.00000	      3.00000	      10.0000	      89.5078	      19.9430	     -2.59366	
      4.00000	      37.0000	      3.00000	      3.00000	      10.0000	      89.5078	      3.92578	     0.614789	
      4.00000	      37.0000	      3.00000	      3.00000	      10.0000	      89.5078	      3.92578	     0.614789	
      4.00000	      37.0000	      3.00000	      3.00000	      10.0000	      89.5078	      19.9430	     -2.59366	
      4.00000	      37.0000	      3.00000	      3.00000	      10.0000	      89.5078	      3.92578	     0.614789	
      4.00000	      37.0000	      3.00000	      3.00000	      10.0000	      89.5078	      3.92578	     0.614789	
      4.00000	      37.0000	      3.00000	      3.00000	      10.0000	      89.5078	      3.92578	     0.614789	
      4.00000	      37.0000	      3.00000	      3.00000	      10.0000	      89.5078	      3.92578	     0.614789	
      4.00000	      37.0000	      3.00000	      3.00000	      10.0000	      89.5078	      19.9430	     -2.59366	
      4.00000	      37.0000	      3.00000	      3.00000	      10.0000	      89.5078	      3.92578	     0.614789	
      4.00000	      37.0000	      3.00000	      3.00000	      10.0000	      89.5078	      3.92578	     0.614789	
      4.00000	      37.0000	      3.00000	      3.00000	      10.0000	      89.5078	      3.92578	     0.614789	
      4.00000	      37.0000	      3.00000	      3.00000	      10.0000	      89.5078	      3.92578	     0.614789	
      4.00000	      37.0000	      3.00000	      3.00000	      10.0000	      89.5078	      3.92578	     0.614789	
      4.00000	      37.0000	      3.00000	      3.00000	      10.0000	      89.5078	      19.9430	     -2.59366	
      4.00000	      37.0000	      3.00000	      3.00000	      10.0000	      89.5078	      19.9430	     -2.59366	
      4.00000	      37.0000	      3.00000	      3.00000	      10.0000	      89.5078	      19.9430	     -2.59366	
      4.00000	      37.0000	      3.00000	      3.00000	      10.0000	      89.5078	      19.9430	     -2.59366	
      4.00000	      37.0000	      3.00000	      3.00000	      10.0000	      89.5078	      3.92578	     0.614789	
      4.00000	      37.0000	      3.00000	      3.00000	      10.0000	      89.5078	      19.9430	     -2.59366	
      4.00000	      37.0000	      3.00000	      3.00000	      10.0000	      89.5078	      3.92578	     0.614789	
      4.00000	      37.0000	      5.00000	      3.00000	      10.0000	      75.0000	     0.000000	     0.000000	
      4.00000	      37.0000	      7.00000	      3.00000	      10.0000	      91.0781	     0.628125	     0.285452	
      4.00000	      37.0000	      3.00000	      3.00000	      10.0000	      89.5078	      3.92578	     0.614789	
      4.00000	      37.0000	      3.00000	      3.00000	      10.0000	      89.5078	      19.9430	     -2.59366	
      4.00000	      37.0000	      5.00000	      3.00000	      10.0000	      103.641	     0.471094	     0.562162	
      4.00000	      37.0000	      7.00000	      3.00000	      10.0000	      89.5078	      1.09922	     0.994635	
      4.00000	      37.0000	      3.00000	      3.00000	      10.0000	      89.5078	      19.9430	     -2.59366	
      4.00000	      37.0000	      3.00000	      3.00000	      10.0000	      89.5078	      19.9430	     -2.59366	
      4.00000	      37.0000	      3.00000	      3.00000	      10.0000	      89.5078	      19.9430	     -2.59366	
      4.00000	      37.0000	      3.00000	      3.00000	      10.0000	      89.5078	      19.9430	     -2.61922	
      4.00000	      37.0000	      3.00000	      3.00000	      10.0000	      89.5078	      19.9430	     -2.64051	
      4.00000	      37.0000	      3.00000	      3.00000	      10.0000	      89.5078	      3.92578	     0.614789	
      4.00000	      15.0000	      3.00000	      3.00000	      10.0000	      89.5078	      5.33906	     0.747954	
      4.00000	      15.0000	      3.00000	      3.00000	      10.0000	      89.5078	      16.4883	    0.0808182	
      4.00000	      30.0000	      3.00000	      3.00000	      10.0000	      89.5078	      19.9430	     -2.10389	
      4.00000	      50.0000	      3.00000	      3.00000	      10.0000	      89.5078	      19.9430	     -2.65755	
      4.00000	      37.0000	      3.00000	      3.00000	      10.0000	      89.5078	      3.92578	     0.614789	
      4.00000	      37.0000	      3.00000	      3.00000	      10.0000	      89.5078	      19.9430	     -2.59366	
      4.00000	      37.0000	      3.00000	      3.00000	      10.0000	      89.5078	      19.9430	     -2.59366	
      4.00000	      37.0000	      3.00000	      3.00000	      10.0000	      89.5078	      19.9430	     -2.56385	
      4.00000	      37.0000	      3.00000	      3.00000	      10.0000	      89.5078	      4.86797	     0.611033	
      4.00000	      37.0000	      3.00000	      3.00000	      10.0000	      89.5078	      3.92578	     0.614789	
      4.00000	      37.0000	      5.00000	      3.00000	      10.0000	      75.0000	     0.000000	     0.000000	
      4.00000	      37.0000	      3.00000	      3.00000	      10.0000	      89.5078	      3.92578	     0.614789	
      4.00000	      37.0000	      3.00000	      3.00000	      10.0000	      89.5078	      19.9430	     -2.59366	
      4.00000	      37.0000	      3.00000	      3.00000	      10.0000	      89.5078	      19.9430	     -2.59366	
      4.00000	      37.0000	      3.00000	      3.00000	      10.0000	      89.5078	      3.92578	     0.614789	
      4.00000	      37.0000	      5.00000	      3.00000	      10.0000	      89.5078	      3.92578	     0.614789	
      4.00000	      37.0000	      3.00000	      3.00000	      10.0000	      89.5078	      3.92578	     0.614789	
      4.00000	      37.0000	      3.00000	      3.00000	      10.0000	      89.5078	      2.19844	     0.740107	
      4.00000	      37.0000	      3.00000	      3.00000	      10.0000	      89.5078	      2.19844	     0.740107	
      4.00000	      37.0000	      3.00000	      3.00000	      10.0000	      89.5078	      19.9430	     -2.19655	
      4.00000	      37.0000	      3.00000	      3.00000	      10.0000	      89.5078	      19.9430	     -2.19655	
      4.00000	      37.0000	      3.00000	      3.00000	      10.0000	      89.5078	      19.9430	     -2.59366	
      4.00000	      37.0000	      3.00000	      3.00000	      10.0000	      89.5078	      19.9430	     -2.59366	
      4.00000	      37.0000	      3.00000	      3.00000	      10.0000	      89.5078	      3.92578	     0.614789	
      4.00000	      37.0000	      3.00000	      3.00000	      10.0000	      89.5078	      3.92578	     0.614789	
      4.00000	      37.0000	      3.00000	      3.00000	      10.0000	      89.5078	      3.92578	     0.614789	
      4.00000	      37.0000	      3.00000	      3.00000	      10.0000	      89.5078	      3.92578	     0.614789	
      4.00000	      37.0000	      3.00000	      3.00000	      10.0000	      89.5078	      3.92578	     0.614789	
      4.00000	      37.0000	      3.00000	      3.00000	      10.0000	      89.5078	      4.55391	     0.627498	
      4.00000	      37.0000	      3.00000	      3.00000	      10.0000	      89.5078	      3.92578	     0.614789	
      4.00000	      37.0000	      3.00000	      3.00000	      10.0000	      89.5078	      3.92578	     0.614789	
      4.00000	      37.0000	      3.00000	      3.00000	      10.0000	      100.500	      1.09922	      1.82907	
      4.00000	      37.0000	      3.00000	      3.00000	      10.0000	      89.5078	      3.92578	     0.614789	
      4.00000	      37.0000	      3.00000	      3.00000	      4.00000	      89.5078	      2.26125	     0.558317	
      4.00000	      37.0000	      3.00000	      3.00000	      4.00000	      89.5078	      7.97719	     -1.60560	
      4.00000	      37.0000	      3.00000	      3.00000	      8.00000	      89.5078	      15.9544	     -2.49145	
      4.00000	      37.0000	      3.00000	      3.00000	      8.00000	      89.5078	      15.9544	     -2.49145	
      4.00000	      37.0000	      3.00000	      3.00000	      12.0000	      89.5078	      23.9316	     -2.65755	
      4.00000	      37.0000	      3.00000	      3.00000	      10.0000	      89.5078	      3.92578	     0.614789	
      4.00000	      37.0000	      3.00000	      3.00000	      10.0000	      89.5078	      3.92578	     0.614789	
      4.00000	      37.0000	      3.00000	      3.00000	      10.0000	      89.5078	      19.9430	     -2.59366	
      4.00000	      37.0000	      3.00000	      3.00000	      10.0000	      89.5078	      3.92578	     0.614789	
      4.00000	      37.0000	      3.00000	      3.00000	      10.0000	      89.5078	      19.9430	    0.0109993	
      4.00000	      37.0000	      3.00000	      3.00000	      10.0000	      89.5078	      19.9430	    0.0109993	
      4.00000	      37.0000	      3.00000	      3.00000	      10.0000	      89.5078	      19.9430	    0.0109993	
      4.00000	      37.0000	      3.00000	      3.00000	      10.0000	      89.5078	      19.9430	    0.0109993	
      4.00000	      37.0000	      3.00000	      3.00000	      10.0000	      89.5078	      19.9430	     -2.59366	
      4.00000	      37.0000	      3.00000	      3.00000	      10.0000	      89.5078	      19.9430	     -2.59366	
      4.00000	      37.0000	      3.00000	      3.00000	      10.0000	      89.5078	      3.92578	     0.614789	
      4.00000	      37.0000	      3.00000	      3.00000	      10.0000	      89.5078	      3.92578	     0.614789	
      4.00000	      37.0000	      3.00000	      3.00000	      10.0000	      89.5078	      19.9430	    0.0109993	
      4.00000	      37.0000	      3.00000	      3.00000	      10.0000	      89.5078	      19.9430	     -2.59366	
      4.00000	      37.0000	      3.00000	      3.00000	      10.0000	      89.5078	      3.92578	     0.614789	
      4.00000	      37.0000	      3.00000	      3.00000	      10.0000	      89.5078	      3.14063	     0.666432	
