Particle Type	Particle Size [nm]	Harmonic #	Harmonic Type 0 Amp	AC [mT]	DC Donut Threshold [%]	Initial Donut Radius [mT]	Donut Slope [mT/mT]	
      4.00000	      23.0000	      3.00000	      1.00000	      10.0000	      89.5078	      14.2898	     0.302917	
      4.00000	      23.0000	      3.00000	      1.00000	      10.0000	      89.5078	      14.2898	     0.302917	
      4.00000	      37.0000	      3.00000	      1.00000	      10.0000	      89.5078	      14.9180	     0.244131	
      4.00000	      37.0000	      3.00000	      1.00000	      10.0000	      89.5078	      14.9180	     0.244131	
      4.00000	      37.0000	      3.00000	      1.00000	      10.0000	      89.5078	      14.9180	     0.244131	
      4.00000	      17.0000	      3.00000	      1.00000	      10.0000	      89.5078	      11.3063	     0.547887	
      4.00000	      39.0000	      3.00000	      1.00000	      10.0000	      89.5078	      14.9180	     0.243327	
      4.00000	      39.0000	      3.00000	     0.000000	      10.0000	      98.9297	     0.314063	     0.860096	
      4.00000	      39.0000	      3.00000	      3.00000	      10.0000	      89.5078	      19.9430	     -2.67032	
      4.00000	      37.0000	      3.00000	      1.00000	      10.0000	      89.5078	      14.9180	     0.244131	
      4.00000	      37.0000	      3.00000	      1.00000	      10.0000	      89.5078	      14.9180	     0.244131	
      4.00000	      37.0000	      3.00000	      3.00000	      10.0000	      89.5078	      19.9430	     -2.64051	
      4.00000	      37.0000	      3.00000	      1.00000	      10.0000	      89.5078	      14.9180	     0.244131	
      4.00000	      37.0000	      3.00000	      1.00000	      10.0000	      89.5078	      14.9180	     0.244131	
      4.00000	      37.0000	      3.00000	      1.00000	      10.0000	      89.5078	      14.9180	     0.244131	
      4.00000	      37.0000	      3.00000	      3.00000	      10.0000	      89.5078	      19.9430	     -2.64051	
      4.00000	      37.0000	      3.00000	      1.00000	      10.0000	      89.5078	      14.9180	     0.244131	
      4.00000	      37.0000	      3.00000	      1.00000	      10.0000	      89.5078	      14.9180	     0.244131	
      4.00000	      37.0000	      3.00000	      1.00000	      10.0000	      89.5078	      14.9180	     0.244131	
      4.00000	      37.0000	      3.00000	      1.00000	      10.0000	      89.5078	      14.9180	     0.244131	
      4.00000	      37.0000	      3.00000	      1.00000	      10.0000	      89.5078	      14.9180	     0.244131	
      4.00000	      37.0000	      3.00000	      1.00000	      10.0000	      89.5078	      14.9180	     0.244131	
      4.00000	      37.0000	      3.00000	      1.00000	      10.0000	      89.5078	      14.9180	     0.244131	
      4.00000	      37.0000	      3.00000	      1.00000	      10.0000	      89.5078	      14.9180	     0.244131	
      4.00000	      37.0000	      3.00000	      3.00000	      10.0000	      89.5078	      19.9430	     -2.64051	
      4.00000	      37.0000	      3.00000	      3.00000	      10.0000	      89.5078	      19.9430	     -2.64051	
      4.00000	      37.0000	      3.00000	      3.00000	      10.0000	      89.5078	      19.9430	     -2.64051	
      4.00000	      37.0000	      3.00000	      3.00000	      10.0000	      89.5078	      19.9430	     -2.64051	
      4.00000	      37.0000	      3.00000	      1.00000	      10.0000	      89.5078	      14.9180	     0.244131	
      4.00000	      37.0000	      3.00000	      1.00000	      10.0000	      89.5078	      14.9180	     0.244131	
      4.00000	      37.0000	      3.00000	      1.00000	      10.0000	      89.5078	      14.9180	     0.244131	
      4.00000	      37.0000	      3.00000	      3.00000	      10.0000	      89.5078	      19.9430	     -2.64051	
      4.00000	      37.0000	      3.00000	      3.00000	      10.0000	      89.5078	      19.9430	     -2.64051	
      4.00000	      37.0000	      3.00000	      3.00000	      10.0000	      89.5078	      19.9430	     -2.64051	
      4.00000	      37.0000	      3.00000	      1.00000	      10.0000	      89.5078	      14.9180	     0.244131	
      4.00000	      37.0000	      3.00000	      1.00000	      10.0000	      89.5078	      14.9180	     0.244131	
      4.00000	      37.0000	      3.00000	      3.00000	      10.0000	      100.500	     0.942188	     0.814400	
      4.00000	      37.0000	      3.00000	      3.00000	      10.0000	      89.5078	      19.9430	     -2.64051	
      4.00000	      37.0000	      3.00000	      1.00000	      10.0000	      89.5078	      14.9180	     0.244131	
      4.00000	      37.0000	      3.00000	      3.00000	      10.0000	      89.5078	      19.9430	     -2.61922	
      4.00000	      37.0000	      3.00000	      3.00000	      10.0000	      89.5078	      19.9430	     -2.64051	
      4.00000	      37.0000	      3.00000	      3.00000	      10.0000	      100.500	      1.09922	     0.885325	
      4.00000	      37.0000	      3.00000	      1.00000	      10.0000	      89.5078	      14.9180	     0.244131	
      4.00000	      37.0000	      3.00000	      3.00000	      10.0000	      89.5078	      19.9430	     -2.61922	
      4.00000	      37.0000	      3.00000	      3.00000	      10.0000	      89.5078	      15.7031	   -0.0888330	
      4.00000	      37.0000	      3.00000	      3.00000	      10.0000	      100.500	     0.942188	     0.833356	
      4.00000	      37.0000	      3.00000	      1.00000	      10.0000	      89.5078	      14.9180	     0.244131	
      4.00000	      37.0000	      3.00000	     0.000000	      10.0000	      100.500	     0.942188	     0.848260	
      4.00000	      37.0000	      3.00000	     0.000000	      10.0000	      100.500	     0.942188	     0.848260	
      4.00000	      37.0000	      3.00000	      3.00000	      10.0000	      89.5078	      19.9430	     -2.64051	
      4.00000	      37.0000	      3.00000	      3.00000	      10.0000	      89.5078	      19.9430	     -2.56385	
      4.00000	      37.0000	      3.00000	      1.00000	      10.0000	      89.5078	      14.9180	     0.244131	
      4.00000	      37.0000	      3.00000	      3.00000	      10.0000	      89.5078	      19.9430	     -2.61922	
      4.00000	      37.0000	      3.00000	      3.00000	      10.0000	      89.5078	      19.9430	     -2.64051	
      4.00000	      37.0000	      3.00000	      3.00000	      10.0000	      89.5078	      19.9430	     -2.40201	
      4.00000	      37.0000	      3.00000	      3.00000	      10.0000	      89.5078	      19.9430	     -2.23592	
      4.00000	      37.0000	      3.00000	      3.00000	      10.0000	      89.5078	      17.4305	    0.0689134	
      4.00000	      37.0000	      3.00000	      3.00000	      10.0000	      89.5078	      6.12422	     0.709759	
      4.00000	      37.0000	      3.00000	      3.00000	      10.0000	      100.500	      1.09922	     0.885325	
      4.00000	      37.0000	      3.00000	      3.00000	      10.0000	      100.500	     0.942188	     0.814400	
      4.00000	      37.0000	      3.00000	      3.00000	      10.0000	      89.5078	      19.9430	     -2.40201	
      4.00000	      37.0000	      3.00000	      3.00000	      10.0000	      89.5078	      19.9430	     -2.44886	
      4.00000	      37.0000	      3.00000	      3.00000	      10.0000	      89.5078	      19.9430	     -2.52978	
      4.00000	      37.0000	      3.00000	      3.00000	      10.0000	      89.5078	      19.9430	     -2.49145	
      4.00000	      37.0000	      3.00000	      3.00000	      10.0000	      89.5078	      19.9430	     -2.56385	
      4.00000	      37.0000	      3.00000	      3.00000	      10.0000	      89.5078	      19.9430	     -2.59366	
      4.00000	      37.0000	      3.00000	      3.00000	      10.0000	      89.5078	      19.9430	     -2.61922	
      4.00000	      37.0000	      3.00000	      2.00000	      10.0000	      89.5078	      15.8602	   -0.0179074	
      4.00000	      37.0000	      3.00000	      1.00000	      10.0000	      89.5078	      14.9180	     0.244131	
      4.00000	      37.0000	      3.00000	      1.00000	      10.0000	      89.5078	      14.9180	     0.244131	
      4.00000	      37.0000	      3.00000	      3.00000	      10.0000	      89.5078	      19.9430	     -2.61922	
      4.00000	      37.0000	      3.00000	      3.00000	      10.0000	      89.5078	      19.9430	     -2.49145	
      4.00000	      37.0000	      3.00000	      3.00000	      10.0000	      89.5078	      19.6289	     -1.95248	
      4.00000	      37.0000	      3.00000	      3.00000	      10.0000	      89.5078	      18.6867	    0.0228035	
      4.00000	      37.0000	      3.00000	      3.00000	      10.0000	      89.5078	      15.7031	   -0.0888330	
      4.00000	      37.0000	      3.00000	      3.00000	      10.0000	      98.9297	     0.628125	     0.917788	
      4.00000	      37.0000	      3.00000	      3.00000	      10.0000	      100.500	     0.942188	     0.739057	
      4.00000	      37.0000	      3.00000	      3.00000	      10.0000	      100.500	     0.942188	    0.0987866	
      4.00000	      37.0000	      3.00000	      3.00000	      10.0000	      100.500	     0.942188	    0.0987866	
      4.00000	      37.0000	      3.00000	      3.00000	      10.0000	      89.5078	      19.9430	     -2.52978	
      4.00000	      37.0000	      3.00000	      3.00000	      10.0000	      89.5078	      19.9430	     -2.52978	
      4.00000	      37.0000	      3.00000	      3.00000	      10.0000	      100.500	     0.942188	     0.609341	
