Particle Type	Particle Size [nm]	Harmonic #	Harmonic Type 0 Amp	AC [mT]	DC Donut Threshold [%]	Initial Donut Radius [mT]	Donut Slope [mT/mT]	
      4.00000	      37.0000	      3.00000	      3.00000	      10.0000	      89.5078	      19.9430	     -2.59366	
      4.00000	      37.0000	      3.00000	      3.00000	      10.0000	      89.5078	      19.9430	     -2.59366	
      4.00000	      37.0000	      3.00000	      3.00000	      10.0000	      89.5078	      19.9430	     -2.59366	
      4.00000	      37.0000	      3.00000	      3.00000	      10.0000	      89.5078	      19.9430	     -2.59366	
      4.00000	      37.0000	      3.00000	      3.00000	      10.0000	      89.5078	      19.9430	     -2.59366	
      4.00000	      37.0000	      3.00000	      3.00000	      10.0000	      89.5078	      19.9430	     -2.59366	
      4.00000	      37.0000	      3.00000	      3.00000	      10.0000	      89.5078	      19.9430	     -2.61922	
      4.00000	      37.0000	      3.00000	      3.00000	      10.0000	      100.500	     0.942188	     0.837981	
      4.00000	      37.0000	      3.00000	      3.00000	      10.0000	      100.500	     0.942188	     0.837981	
      4.00000	      37.0000	      3.00000	      3.00000	      10.0000	      100.500	     0.942188	     0.837981	
      4.00000	      37.0000	      3.00000	      3.00000	      10.0000	      89.5078	      19.9430	-4.56092e-015	
      4.00000	      37.0000	      3.00000	      3.00000	      10.0000	      89.5078	      19.9430	-4.56092e-015	
      4.00000	      37.0000	      3.00000	      3.00000	      10.0000	      89.5078	      19.9430	     -2.59366	
      4.00000	      37.0000	      3.00000	      3.00000	      10.0000	      89.5078	      19.9430	     -2.59366	
      4.00000	      37.0000	      3.00000	      3.00000	      10.0000	      89.5078	      19.9430	     -2.59366	
      4.00000	      37.0000	      3.00000	      3.00000	      10.0000	      89.5078	      19.9430	     -2.59366	
      4.00000	      37.0000	      3.00000	      3.00000	      10.0000	      89.5078	      19.9430	     -2.59366	
      4.00000	      37.0000	      3.00000	      3.00000	      10.0000	      89.5078	      19.9430	     -2.52978	
      4.00000	      37.0000	      3.00000	      3.00000	      10.0000	      89.5078	      19.9430	   0.00519783	
      4.00000	      37.0000	      3.00000	      3.00000	      10.0000	      89.5078	      2.19844	     0.790141	
      4.00000	      37.0000	      3.00000	      3.00000	      10.0000	      89.5078	      19.9430	     -2.59366	
      4.00000	      37.0000	      3.00000	      3.00000	      10.0000	      89.5078	      1.57031	     0.796211	
      4.00000	      37.0000	      3.00000	      3.00000	      10.0000	      89.5078	      19.9430	     -1.53052	
      4.00000	      37.0000	      3.00000	      3.00000	      10.0000	      89.5078	      2.19844	     0.740107	
      4.00000	      37.0000	      3.00000	      3.00000	      10.0000	      89.5078	      19.9430	     -2.59366	
      4.00000	      37.0000	      3.00000	      3.00000	      10.0000	      89.5078	      19.9430	     -2.59366	
      4.00000	      37.0000	      3.00000	      3.00000	      10.0000	      89.5078	      19.9430	     -2.59366	
      4.00000	      37.0000	      3.00000	      3.00000	      10.0000	      89.5078	      19.9430	    0.0109993	
      4.00000	      37.0000	      3.00000	      3.00000	      10.0000	      89.5078	      2.19844	     0.740107	
      4.00000	      37.0000	      3.00000	      3.00000	      10.0000	      89.5078	      19.9430	     -2.59366	
      4.00000	      37.0000	      3.00000	      3.00000	      10.0000	      89.5078	      19.9430	     -2.59366	
      4.00000	      37.0000	      3.00000	      3.00000	      10.0000	      89.5078	      2.19844	     0.740107	
      4.00000	      37.0000	      3.00000	      3.00000	      10.0000	      89.5078	      2.19844	     0.740107	
      4.00000	      37.0000	      3.00000	      3.00000	      10.0000	      89.5078	      2.19844	     0.740107	
      4.00000	      37.0000	      3.00000	      3.00000	      10.0000	      89.5078	      2.19844	     0.740107	
      4.00000	      37.0000	      3.00000	      3.00000	      10.0000	      89.5078	      19.9430	     -2.64051	
      4.00000	      37.0000	      3.00000	      3.00000	      10.0000	      89.5078	      2.35547	     0.734373	
      4.00000	      37.0000	      3.00000	      3.00000	      10.0000	      89.5078	      2.66953	     0.710932	
      4.00000	      37.0000	      3.00000	      3.00000	      10.0000	      89.5078	      19.9430	     -2.59366	
      4.00000	      37.0000	      3.00000	      3.00000	      10.0000	      89.5078	      19.9430	     -2.59366	
      4.00000	      37.0000	      3.00000	      3.00000	      10.0000	      89.5078	      19.9430	     -2.59366	
      4.00000	      37.0000	      3.00000	      3.00000	      10.0000	      89.5078	      19.9430	     -2.64051	
      4.00000	      37.0000	      3.00000	      3.00000	      10.0000	      89.5078	      19.9430	     -2.59366	
      4.00000	      37.0000	      3.00000	      3.00000	      10.0000	      89.5078	      19.9430	     -2.64051	
      4.00000	      37.0000	      3.00000	      3.00000	      10.0000	      89.5078	      19.9430	     -2.67032	
      4.00000	      37.0000	      3.00000	      3.00000	      10.0000	      89.5078	      19.9430	     -2.61922	
      4.00000	      37.0000	      3.00000	      3.00000	      10.0000	      89.5078	      2.66953	     0.710664	
      4.00000	      37.0000	      3.00000	      3.00000	      10.0000	      89.5078	      2.82656	     0.696110	
      4.00000	      37.0000	      3.00000	      3.00000	      10.0000	      89.5078	      19.9430	     -2.61922	
      4.00000	      37.0000	      3.00000	      3.00000	      10.0000	      89.5078	      2.51250	     0.718444	
      4.00000	      37.0000	      3.00000	      3.00000	      10.0000	      89.5078	      2.19844	     0.747586	
      4.00000	      37.0000	      3.00000	      3.00000	      10.0000	      89.5078	      19.9430	     -2.59366	
      4.00000	      37.0000	      3.00000	      3.00000	      10.0000	      89.5078	      19.9430	     -2.67032	
      4.00000	      37.0000	      3.00000	      3.00000	      10.0000	      89.5078	      19.9430	     -2.67032	
      4.00000	      37.0000	      3.00000	      3.00000	      10.0000	      89.5078	      2.51250	     0.716231	
      4.00000	      37.0000	      3.00000	      3.00000	      10.0000	      89.5078	      19.9430	     -2.59366	
      4.00000	      37.0000	      3.00000	      3.00000	      10.0000	      89.5078	     0.785156	     0.847451	
      4.00000	      37.0000	      3.00000	      3.00000	      10.0000	      89.5078	     0.785156	     0.847451	
      4.00000	      37.0000	      3.00000	      3.00000	      10.0000	      89.5078	      19.9430	     -2.59366	
