Particle Type	Particle Size [nm]	Harmonic #	Harmonic Type 0 Amp	AC [mT]	DC Donut Threshold [%]	Initial Donut Radius [mT]	Donut Slope [mT/mT]	
      4.00000	      37.0000	      3.00000	      3.00000	      10.0000	      100.500	     0.942188	     0.669254	
      4.00000	      37.0000	      3.00000	      3.00000	      10.0000	      100.500	     0.942188	     0.669254	
      4.00000	      37.0000	      3.00000	      3.00000	      10.0000	      100.500	     0.942188	     0.669254	
      4.00000	      37.0000	      3.00000	      3.00000	      10.0000	      100.500	     0.942188	     0.669254	
      4.00000	      37.0000	      3.00000	      3.00000	      10.0000	      100.500	     0.942188	     0.669254	
      4.00000	      37.0000	      3.00000	      3.00000	      10.0000	      100.500	     0.942188	     0.669254	
      4.00000	      37.0000	      3.00000	      3.00000	      10.0000	      89.5078	      19.9430	     -2.64051	
      4.00000	      37.0000	      3.00000	      3.00000	      10.0000	      89.5078	      19.9430	     -2.64051	
      4.00000	      37.0000	      3.00000	      3.00000	      10.0000	      100.500	     0.942188	     0.609341	
      4.00000	      37.0000	      3.00000	      3.00000	      10.0000	      89.5078	      19.9430	     -2.64051	
      4.00000	      37.0000	      3.00000	      3.00000	      10.0000	      89.5078	      19.9430	     -2.64051	
      4.00000	      37.0000	      3.00000	      3.00000	      10.0000	      100.500	     0.942188	     0.669254	
      4.00000	      37.0000	      4.00000	      3.00000	      10.0000	      89.5078	      9.57891	     0.976928	
      4.00000	      37.0000	      5.00000	      3.00000	      10.0000	      103.641	     0.471094	     0.533102	
      4.00000	      37.0000	      5.00000	      3.00000	      10.0000	      103.641	     0.471094	     0.533026	
      4.00000	      37.0000	      3.00000	      3.00000	      10.0000	      89.5078	      2.19844	     0.574614	
      4.00000	      37.0000	      3.00000	      3.00000	      10.0000	      89.5078	      19.9430	     -2.56385	
      4.00000	      37.0000	      3.00000	      3.00000	      10.0000	      89.5078	      19.9430	     -2.56385	
      4.00000	      37.0000	      3.00000	      3.00000	      10.0000	      103.641	     0.942188	 5.07932e-017	
      4.00000	      37.0000	      3.00000	      3.00000	      10.0000	      98.9297	     0.157031	     0.922028	
      4.00000	      37.0000	      3.00000	      3.00000	      10.0000	      89.5078	      2.04141	     0.615158	
      4.00000	      17.0000	      3.00000	      3.00000	      10.0000	      89.5078	      19.7859	   0.00117370	
      4.00000	      37.0000	      3.00000	      3.00000	      10.0000	      89.5078	      2.19844	     0.574614	
      4.00000	      63.0000	      3.00000	      3.00000	      10.0000	      89.5078	      19.9430	     -2.52978	
      4.00000	      37.0000	      3.00000	      3.00000	      10.0000	      89.5078	      2.19844	     0.574614	
      4.00000	      10.0000	      3.00000	      3.00000	      10.0000	      89.5078	     0.314063	     0.151945	
      4.00000	      37.0000	      3.00000	      3.00000	      10.0000	      89.5078	      2.19844	     0.574614	
